File: packages/exspy/exspy-0.3.2.tar.gz/exspy-0.3.2/examples/model_fitting/lowloss_spectrum.msa
#FORMAT      : EMSA/MAS Spectral Data File
#VERSION     : 1.0
#TITLE       :
#DATE        : 04-SEP-2012
#TIME        : 23:14
#OWNER       :
#NPOINTS     : 2048.00
#NCOLUMNS    : 1.00000
#XUNITS      : eV
#YUNITS      : Counts
#DATATYPE    : Y
#XPERCHAN    : 0.200000
#OFFSET      : -40.0000
#SIGNALTYPE  : ELS
#SPECTRUM    :
35
20
13
35
6
17
17
33
26
29
11
27
13
6
28
29
36
24
33
3
37
43
37
39
25
20
39
31
4
23
36
34
15
33
22
29
42
33
42
41
34
45
60
40
32
55
53
41
55
45
38
61
54
63
40
51
67
71
63
72
63
81
82
79
81
85
60
96
97
91
93
110
108
125
123
127
138
145
181
183
205
227
223
226
231
249
275
330
337
406
525
764
1138
1801
2949
4804
7956
12526
18548
25603
32578
39901
44384
42722
37719
30222
24388
18144
11079
6244
4114
2647
1879
1465
1216
1080
979
929
910
898
867
885
849
804
840
851
901
917
987
1015
1039
1148
1212
1226
1221
1308
1426
1454
1342
1316
1230
1274
1189
1124
1112
1081
1005
1047
977
1063
1064
1116
1114
1082
1048
1115
1167
1134
1187
1159
1173
1193
1245
1235
1264
1328
1433
1498
1475
1512
1573
1586
1721
1860
1958
2023
2164
2336
2325
2257
2390
2298
2281
2155
2104
2076
1948
1893
1834
1765
1693
1626
1632
1585
1590
1554
1306
1409
1363
1289
1222
1233
1208
1159
1121
1144
1078
1049
1054
1033
1065
973
953
907
887
890
925
827
766
766
777
736
789
737
750
745
740
729
677
771
700
682
718
703
762
760
781
767
801
793
837
756
774
732
706
690
723
672
678
670
656
637
639
655
640
615
579
630
601
651
594
579
570
597
583
598
624
557
589
573
572
541
551
515
457
495
474
447
488
464
459
494
516
508
437
435
447
476
402
427
412
378
402
367
387
390
387
379
390
398
380
348
344
325
379
382
324
337
342
347
334
303
334
342
307
277
357
344
349
313
313
315
283
310
343
289
313
283
269
260
230
265
281
276
229
251
258
235
210
240
277
258
216
219
250
226
232
240
252
208
197
210
205
223
220
235
221
214
193
196
229
228
214
205
181
176
184
231
209
206
215
171
194
223
203
175
205
195
160
218
214
170
209
180
177
211
160
172
184
166
164
192
240
211
202
242
246
260
278
261
271
301
298
265
295
270
280
279
278
306
305
248
257
255
243
229
227
223
223
234
231
212
186
236
234
237
213
228
207
155
232
204
192
169
209
204
183
168
188
178
195
204
176
196
196
205
179
155
195
184
160
178
181
167
146
161
173
176
162
153
163
130
143
118
127
137
183
157
118
149
147
140
174
160
146
154
114
117
116
115
129
126
123
125
144
138
120
129
115
122
118
111
100
113
135
94
114
103
96
146
106
113
125
123
122
95
107
129
119
118
92
115
95
63
63
87
67
64
81
78
78
86
71
78
90
64
90
78
98
85
68
64
75
74
63
48
50
67
56
72
72
106
85
70
55
51
72
42
60
61
63
47
66
51
45
53
74
67
62
58
42
35
77
74
70
70
78
54
77
35
43
34
41
49
45
39
55
47
65
68
39
35
54
53
58
53
48
58
50
53
64
64
65
42
40
60
53
58
46
34
50
54
45
53
30
26
41
59
29
42
49
64
52
65
70
49
56
39
65
50
15
36
24
47
70
58
47
36
49
57
37
47
44
8
23
57
48
44
54
45
50
42
34
36
35
48
44
21
21
24
22
31
63
58
34
38
26
41
26
26
36
44
26
39
40
41
17
17
34
15
37
15
33
34
47
32
35
16
41
32
16
11
16
31
18
30
17
28
29
39
26
29
14
23
25
27
39
36
11
18
17
32
35
9
31
29
34
20
44
24
43
43
35
31
31
38
20
25
39
39
30
47
39
29
45
33
34
27
54
21
37
3
24
27
35
11
10
28
8
10
26
5
30
14
21
31
19
46
31
34
37
40
24
27
34
27
-5
37
18
36
47
27
22
10
7
10
34
13
11
26
37
14
10
12
14
14
2
8
14
31
6
21
26
21
18
36
14
18
34
22
19
26
25
26
15
14
25
19
31
10
13
35
19
34
24
2
30
7
34
20
33
38
22
44
24
17
13
12
17
15
7
20
38
12
26
20
16
26
23
48
18
19
21
18
28
23
-6
37
13
20
37
18
16
29
15
-1
23
16
16
10
11
34
10
25
22
6
27
30
11
9
15
25
35
26
24
14
13
17
15
17
20
26
29
10
16
17
6
26
21
31
23
27
17
16
19
16
11
8
10
-5
17
-3
13
21
6
23
18
19
7
21
18
19
3
6
29
-5
10
-6
35
9
17
-2
18
17
21
13
15
27
26
35
33
31
20
34
14
21
7
16
17
6
13
4
7
22
12
12
14
7
21
2
49
20
10
14
7
14
7
14
15
20
16
-7
16
14
6
-4
9
16
-11
-2
25
-2
-5
-3
26
21
28
-15
6
5
-4
-6
8
15
3
5
4
5
9
14
9
11
0
-3
-15
11
21
10
8
15
-3
9
7
0
25
8
-2
45
17
4
13
30
2
31
22
29
19
-2
2
-2
9
8
10
12
5
7
12
-5
10
24
0
18
28
13
17
#ENDOFDATA   :